participant_id,block_id,trial_index,hazard_rate,noise_sigma,LLR,choice,correct_side,reaction_time_ms,belief_L,subjective_h_snapshot
P01,1,1,0.05,0.4100,3.226995,1,1,3178,3.226995,0.0010
P01,1,2,0.05,0.4100,-2.953524,0,1,9783,-2.307557,0.9910
P01,1,3,0.05,0.4100,1.917467,1,1,1569,1.348992,0.9910
P01,1,4,0.05,0.4100,1.525006,1,1,967,1.927806,0.5310
P01,1,5,0.05,0.4100,1.917923,1,1,774,2.433343,0.4510
P01,1,6,0.05,0.4100,5.353956,1,1,1029,5.936859,0.4410
P01,1,7,0.05,0.4100,5.353956,1,1,985,6.053605,0.4410
P01,1,8,0.05,0.4100,0.594862,1,1,706,1.294952,0.0810
P01,1,9,0.05,0.4100,3.232391,1,1,123460,3.622565,0.0810
P01,1,10,0.05,0.4100,3.439559,1,1,5754,4.103770,0.0710
P01,1,11,0.05,0.4100,0.734078,1,1,1974,1.413055,0.0610
P01,1,12,0.05,0.4100,2.836541,1,1,1481,3.253835,0.0510
P01,1,13,0.05,0.4100,5.294251,1,1,4914,5.941676,0.0510
P01,1,14,0.05,0.4100,2.354599,1,1,5408,3.054267,0.0510
P01,1,15,0.05,0.4100,3.753973,1,1,580,4.389664,0.0510
P01,1,16,0.05,0.4100,2.345472,1,1,355,3.030494,0.0510
P01,1,17,0.05,0.4100,2.265176,1,1,849,2.899324,0.0510
P01,1,18,0.05,0.4100,-0.442225,0,1,1419,0.182801,0.3310
P01,1,19,0.05,0.4100,4.813038,1,1,3549,4.874673,0.3310
P01,1,20,0.05,0.4100,5.038291,1,1,6910,5.730409,0.3310
P01,1,21,0.05,0.4100,1.054018,1,1,1418,1.752750,0.3010
P01,1,22,0.05,0.4100,3.388123,1,1,1088,3.873756,0.2910
P01,1,23,0.05,0.4100,5.353956,1,1,21565,6.026709,0.2910
P01,1,24,0.05,0.4100,0.717787,1,1,850,1.417780,0.2610
P01,1,25,0.05,0.4100,5.022416,1,1,699,5.440759,0.2610
P01,1,26,0.05,0.4100,5.353956,1,1,670,6.051039,0.2610
P01,1,27,0.05,0.4100,-5.147871,0,0,910,-4.447790,0.2610
P01,1,28,0.05,0.4100,-0.368008,0,0,1104,-1.054067,0.2310
P01,1,29,0.05,0.4100,-1.169700,0,0,911,-1.499233,0.2110
P01,1,30,0.05,0.4100,2.804743,1,0,6444,2.368760,0.2310
P01,1,31,0.05,0.4100,-5.353956,0,0,909,-4.778280,0.2310
P01,1,32,0.05,0.4100,-0.619063,0,0,1012,-1.310026,0.2110
P01,1,33,0.05,0.4100,-3.334295,0,0,12610,-3.728027,0.2110
P01,1,34,0.05,0.4100,-2.588615,0,0,1629,-3.256659,0.2010
P01,1,35,0.05,0.4100,0.781390,1,0,730,0.133814,0.2810
P01,1,36,0.05,0.4100,-5.353956,0,0,713,-5.308787,0.2710
P01,1,37,0.05,0.4100,-3.285926,0,0,642,-3.982086,0.2710
P01,1,38,0.05,0.4100,0.778371,1,0,682,0.102516,0.3310
P01,1,39,0.05,0.4100,-5.353956,0,0,822,-5.319332,0.3310
P01,1,40,0.05,0.4100,-4.549726,0,0,609,-5.245965,0.3310
P01,2,1,0.1,0.4100,-1.409163,0,0,736,-1.409163,0.0010
P01,2,2,0.1,0.4100,-5.353956,0,0,881,-6.647868,0.0010
P01,2,3,0.1,0.4100,-0.524360,0,1,805,-3.926944,0.0010
P01,2,4,0.1,0.4100,4.236247,1,1,848,1.273233,0.1110
P01,2,5,0.1,0.4100,1.223392,1,1,562,2.397326,0.1010
P01,2,6,0.1,0.4100,5.353956,1,1,693,7.452818,0.1010
P01,2,7,0.1,0.4100,3.533470,1,1,534,6.957805,0.1010
P01,2,8,0.1,0.4100,0.906646,1,0,625,4.319655,0.0810
P01,2,9,0.1,0.4100,-0.740993,1,0,1225,2.353964,0.0510
P01,2,10,0.1,0.4100,-1.841031,0,0,774,0.225700,0.0910
P01,2,11,0.1,0.4100,2.097033,1,1,925,2.308632,0.0810
P01,2,12,0.1,0.4100,3.243506,1,1,656,5.276275,0.0810
P01,2,13,0.1,0.4100,0.756703,1,1,508,4.050919,0.0710
P01,2,14,0.1,0.4100,5.353956,1,1,489,8.362356,0.0710
P01,2,15,0.1,0.4100,-0.227382,1,1,1599,3.207631,0.0610
P01,2,16,0.1,0.4100,2.004847,1,1,520,4.631081,0.0610
P01,2,17,0.1,0.4100,4.411135,1,1,564,7.587839,0.0610
P01,2,18,0.1,0.4100,5.353956,1,1,640,8.780539,0.0610
P01,2,19,0.1,0.4100,0.639757,1,1,709,4.077246,0.0610
P01,2,20,0.1,0.4100,2.879757,1,1,535,5.897340,0.0610
P01,2,21,0.1,0.4100,0.649122,1,1,474,4.009117,0.0610
P01,2,22,0.1,0.4100,-4.729901,1,0,489,-1.736407,0.0210
P01,2,23,0.1,0.4100,-3.655983,0,0,1160,-5.231129,0.0210
P01,2,24,0.1,0.4100,-5.353956,0,0,732,-8.641838,0.0210
P01,2,25,0.1,0.4100,-3.556863,0,0,653,-6.993642,0.0210
P01,2,26,0.1,0.4100,-5.353956,0,0,630,-8.767981,0.0210
P01,2,27,0.1,0.4100,-2.434899,0,0,608,-5.872328,0.0210
P01,2,28,0.1,0.4100,-1.645168,0,0,520,-5.003164,0.0210
P01,2,29,0.1,0.4100,5.353956,1,1,1284,2.102043,0.0210
P01,2,30,0.1,0.4100,4.903863,1,1,597,6.777281,0.0210
P01,2,31,0.1,0.4100,3.649547,1,1,625,7.056866,0.0210
P01,2,32,0.1,0.4100,1.940681,1,1,1314,5.356414,0.0210
P01,2,33,0.1,0.4100,5.224597,1,1,744,8.529467,0.0210
P01,2,34,0.1,0.4100,0.308859,1,1,1733,3.744987,0.0210
P01,2,35,0.1,0.4100,4.507985,1,1,685,7.397815,0.0210
P01,2,36,0.1,0.4100,4.861194,1,1,593,8.284523,0.0210
P01,2,37,0.1,0.4100,-3.227058,0,1,45520,0.207369,0.0410
P01,2,38,0.1,0.4100,-1.137463,0,1,713,-0.943035,0.0410
P01,2,39,0.1,0.4100,0.477975,1,1,747,-0.398495,0.0310
P01,2,40,0.1,0.4100,3.099226,1,1,519,2.726036,0.0310
P01,3,1,0.3,0.4100,1.187286,1,0,698,1.187286,0.0010
P01,3,2,0.3,0.4100,-5.353956,0,0,998,-4.472390,0.9910
P01,3,3,0.3,0.4100,-5.353956,0,0,805,-7.348429,0.3910
P01,3,4,0.3,0.4100,-5.353956,0,0,700,-7.429462,0.2710
P01,3,5,0.3,0.4100,2.225703,1,1,865,0.149804,0.7810
P01,3,6,0.3,0.4100,1.415193,1,1,747,1.531655,0.4410
P01,3,7,0.3,0.4100,-0.287975,0,1,622,0.814423,0.5810
P01,3,8,0.3,0.4100,1.409041,1,1,610,2.028932,0.6010
P01,3,9,0.3,0.4100,1.962525,1,1,610,3.340077,0.5610
P01,3,10,0.3,0.4100,1.723602,1,1,549,3.558764,0.5110
P01,3,11,0.3,0.4100,5.046169,1,1,558,6.924859,0.5110
P01,3,12,0.3,0.4100,1.275118,1,1,431,3.347965,0.4310
P01,3,13,0.3,0.4100,4.639804,1,1,519,6.476670,0.4210
P01,3,14,0.3,0.4100,-2.350907,1,0,491,-0.282398,0.0710
P01,3,15,0.3,0.4100,-2.326622,0,0,877,-2.545752,0.0910
P01,3,16,0.3,0.4100,-1.265680,0,0,414,-2.868626,0.0810
P01,3,17,0.3,0.4100,5.353956,0,1,462,3.641143,0.0510
P01,3,18,0.3,0.4100,4.451861,1,1,113,6.345064,0.0510
P01,3,19,0.3,0.4100,-3.170420,0,0,850,-1.103595,0.0710
P01,3,20,0.3,0.4100,4.916102,1,1,954,4.091436,0.0710
P01,3,21,0.3,0.4100,0.581431,1,1,1345,2.538444,0.0710
P01,3,22,0.3,0.4100,5.211775,1,1,714,6.811967,0.0710
P01,3,23,0.3,0.4100,3.049696,1,1,611,5.121625,0.0710
P01,3,24,0.3,0.4100,-4.341324,0,0,1012,-2.306690,0.0710
P01,3,25,0.3,0.4100,-0.288776,0,0,685,-1.795237,0.0710
P01,3,26,0.3,0.4100,-5.353956,0,0,653,-6.609094,0.0710
P01,3,27,0.3,0.4100,-1.965447,0,0,610,-4.035444,0.0710
P01,3,28,0.3,0.4100,2.394558,1,1,894,0.444201,0.0910
P01,3,29,0.3,0.4100,5.353956,1,1,13570,5.697305,0.0910
P01,3,30,0.3,0.4100,3.464969,1,1,656,5.519439,0.0910
P01,3,31,0.3,0.4100,1.054911,1,1,1165,3.104382,0.0910
P01,3,32,0.3,0.4100,-1.724342,0,0,1824,0.054897,0.1210
P01,3,33,0.3,0.4100,-5.353956,0,0,790,-5.311250,0.1210
P01,3,34,0.3,0.4100,-2.071553,0,0,837,-4.113967,0.1210
P01,3,35,0.3,0.4100,-0.290645,0,1,787,-2.250246,0.1210
P01,3,36,0.3,0.4100,-5.353956,0,0,732,-6.835692,0.1210
P01,3,37,0.3,0.4100,-0.254512,0,1,684,-2.326643,0.1110
P01,3,38,0.3,0.4100,-2.897962,0,0,700,-4.412986,0.1110
P01,3,39,0.3,0.4100,-5.353956,0,0,701,-7.343401,0.1110
P01,3,40,0.3,0.4100,-5.353956,0,0,587,-7.429437,0.1110
P01,4,1,0.5,0.4100,4.135960,1,1,783,4.135960,0.0010
P01,4,2,0.5,0.4100,1.318223,1,1,700,1.912347,0.0010
P01,4,3,0.5,0.4100,4.283771,1,1,775,4.733783,0.0010
P01,4,4,0.5,0.4100,0.392906,1,1,790,0.996169,0.0010
P01,4,5,0.5,0.4100,0.915730,1,1,685,1.191997,0.0010
P01,4,6,0.5,0.4100,1.406115,1,0,520,1.727227,0.0010
P01,4,7,0.5,0.4100,0.803872,0,1,1854,1.226112,0.3310
P01,4,8,0.5,0.4100,-4.657644,0,0,835,-4.329141,0.3310
P01,4,9,0.5,0.4100,-4.808690,0,0,581,-5.406363,0.3310
P01,4,10,0.5,0.4100,-3.867973,0,0,848,-4.476780,0.3310
P01,4,11,0.5,0.4100,3.054955,1,1,895,2.454983,0.3610
P01,4,12,0.5,0.4100,1.744219,1,1,595,2.256904,0.3310
P01,4,13,0.5,0.4100,3.172887,1,0,654,3.665675,0.3310
P01,4,14,0.5,0.4100,1.543522,1,1,655,2.125686,0.3010
P01,4,15,0.5,0.4100,0.774145,1,1,656,1.251935,0.2710
P01,4,16,0.5,0.4100,5.353956,1,1,529,5.687967,0.2710
P01,4,17,0.5,0.4100,-3.013439,0,0,939,-2.403205,0.2910
P01,4,18,0.5,0.4100,2.564866,1,1,803,2.057080,0.3010
P01,4,19,0.5,0.4100,1.295361,1,1,722,1.764690,0.2910
P01,4,20,0.5,0.4100,4.879399,1,1,624,5.307547,0.2910
P01,4,21,0.5,0.4100,5.353956,1,1,566,5.962160,0.2910
P01,4,22,0.5,0.4100,0.690933,1,0,1239,1.302222,0.2610
P01,4,23,0.5,0.4100,-1.240070,0,0,1135,-0.895541,0.3010
P01,4,24,0.5,0.4100,-2.953982,0,0,668,-3.205660,0.3010
P01,4,25,0.5,0.4100,3.749239,1,1,895,3.185177,0.3110
P01,4,26,0.5,0.4100,4.078283,1,1,580,4.641347,0.3110
P01,4,27,0.5,0.4100,-4.902201,0,0,865,-4.300028,0.3110
P01,4,28,0.5,0.4100,0.596803,0,1,1869,-0.000377,0.2610
P01,4,29,0.5,0.4100,5.353956,1,1,893,5.353844,0.2610
P01,4,30,0.5,0.4100,-2.964141,0,0,821,-2.355648,0.2810
P01,4,31,0.5,0.4100,0.732603,1,1,1271,0.229502,0.3110
P01,4,32,0.5,0.4100,-2.374860,0,0,954,-2.306741,0.3010
P01,4,33,0.5,0.4100,1.539819,1,1,999,1.041725,0.3310
P01,4,34,0.5,0.4100,5.197843,1,1,714,5.484904,0.3310
P01,4,35,0.5,0.4100,3.732736,1,1,578,4.341982,0.3310
P01,4,36,0.5,0.4100,-0.994625,0,1,1046,-0.396738,0.3710
P01,4,37,0.5,0.4100,-3.215200,0,0,954,-3.332034,0.3710
P01,4,38,0.5,0.4100,-4.229171,0,0,685,-4.798994,0.3710
P01,4,39,0.5,0.4100,-0.850482,0,0,595,-1.454456,0.3510
P01,4,40,0.5,0.4100,-5.353956,0,0,638,-5.728612,0.3510
P02,1,1,0.05,0.2400,-4.369228,0,0,1652,-4.369228,0.0010
P02,1,2,0.05,0.2400,-11.858386,0,0,709,-14.967630,0.0010
P02,1,3,0.05,0.2400,-12.604174,0,0,368,-16.046441,0.0010
P02,1,4,0.05,0.2400,-6.761088,0,0,1199,-10.203362,0.0010
P02,1,5,0.05,0.2400,-6.696168,0,0,536,-10.137289,0.0010
P02,1,6,0.05,0.2400,-10.754670,0,0,585,-14.195713,0.0010
P02,1,7,0.05,0.2400,-6.443653,0,0,358,-9.885909,0.0010
P02,1,8,0.05,0.2400,-9.016778,0,0,363,-12.457467,0.0010
P02,1,9,0.05,0.2400,-4.445983,0,0,412,-7.888139,0.0010
P02,1,10,0.05,0.2400,-15.582326,0,0,369,-19.012957,0.0010
P02,1,11,0.05,0.2400,12.933866,1,1,620,9.491589,0.0110
P02,1,12,0.05,0.2400,-10.498678,0,0,523,-7.058755,0.0410
P02,1,13,0.05,0.2400,-13.399332,0,0,434,-16.815115,0.0410
P02,1,14,0.05,0.2400,1.138615,0,1,1558,-2.303661,0.0010
P02,1,15,0.05,0.2400,7.277424,1,1,509,5.248402,0.0110
P02,1,16,0.05,0.2400,2.594768,1,1,539,5.885103,0.0110
P02,1,17,0.05,0.2400,8.842218,1,1,662,12.201241,0.0110
P02,1,18,0.05,0.2400,-7.622578,1,0,533,-4.180458,0.0010
P02,1,19,0.05,0.2400,-5.142624,0,0,565,-8.194713,0.0010
P02,1,20,0.05,0.2400,-9.703624,0,0,493,-13.137316,0.0010
P02,1,21,0.05,0.2400,-13.074530,0,0,381,-16.516746,0.0010
P02,1,22,0.05,0.2400,-6.187045,0,0,542,-9.629320,0.0010
P02,1,23,0.05,0.2400,-4.360404,0,0,726,-7.800630,0.0010
P02,1,24,0.05,0.2400,-4.931539,0,0,560,-8.361112,0.0010
P02,1,25,0.05,0.2400,-12.223730,0,0,593,-15.658733,0.0010
P02,1,26,0.05,0.2400,-10.925936,0,0,367,-14.368208,0.0010
P02,1,27,0.05,0.2400,-9.550095,0,0,379,-12.992354,0.0010
P02,1,28,0.05,0.2400,1.400417,1,0,678,-2.041789,0.0110
P02,1,29,0.05,0.2400,-6.089533,0,0,463,-7.915146,0.0110
P02,1,30,0.05,0.2400,11.432953,1,1,466,8.002013,0.0110
P02,1,31,0.05,0.2400,-5.256714,0,0,491,-1.824836,0.0310
P02,1,32,0.05,0.2400,-12.272212,0,0,445,-13.921201,0.0310
P02,1,33,0.05,0.2400,-4.186203,0,0,481,-7.628452,0.0310
P02,1,34,0.05,0.2400,-10.443104,0,0,518,-13.870307,0.0310
P02,1,35,0.05,0.2400,-14.485509,0,0,447,-17.927757,0.0310
P02,1,36,0.05,0.2400,-4.746216,0,0,470,-8.188493,0.0310
P02,1,37,0.05,0.2400,-10.598072,0,0,443,-14.031711,0.0310
P02,1,38,0.05,0.2400,-7.956457,0,0,396,-11.398709,0.0310
P02,1,39,0.05,0.2400,-3.536125,0,0,561,-6.978052,0.0310
P02,1,40,0.05,0.2400,-4.866495,0,0,357,-8.280082,0.0310
P02,2,1,0.3,0.2400,10.546423,1,1,600,10.546423,0.0010
P02,2,2,0.3,0.2400,4.185889,1,1,410,4.141884,0.0010
P02,2,3,0.3,0.2400,6.565596,1,1,402,6.522967,0.0010
P02,2,4,0.3,0.2400,6.321279,1,1,340,6.277401,0.0010
P02,2,5,0.3,0.2400,5.785744,1,1,324,5.741902,0.0010
P02,2,6,0.3,0.2400,-1.486485,0,0,506,-1.530210,0.7610
P02,2,7,0.3,0.2400,13.545778,1,1,485,13.574119,0.7610
P02,2,8,0.3,0.2400,2.785248,1,1,428,2.741241,0.6110
P02,2,9,0.3,0.2400,5.800753,1,1,461,5.762080,0.6110
P02,2,10,0.3,0.2400,-8.057970,0,0,452,-8.101701,0.6110
P02,2,11,0.3,0.2400,9.636888,1,1,989,9.680869,0.6110
P02,2,12,0.3,0.2400,-8.289551,0,0,454,-8.333552,0.6110
P02,2,13,0.3,0.2400,-1.573824,0,0,394,-1.529838,0.4510
P02,2,14,0.3,0.2400,-5.632063,0,0,406,-5.603726,0.4510
P02,2,15,0.3,0.2400,-11.883773,0,0,432,-11.840089,0.4510
P02,2,16,0.3,0.2400,5.407289,1,1,478,5.451295,0.4510
P02,2,17,0.3,0.2400,-9.820300,0,0,451,-9.863931,0.4510
P02,2,18,0.3,0.2400,10.189343,1,1,418,10.233345,0.4510
P02,2,19,0.3,0.2400,-6.115493,0,0,386,-6.159497,0.4610
P02,2,20,0.3,0.2400,-4.416879,0,0,417,-4.373057,0.4510
P02,2,21,0.3,0.2400,-6.272916,0,0,338,-6.230006,0.4510
P02,2,22,0.3,0.2400,-0.946114,0,0,338,-0.902280,0.3410
P02,2,23,0.3,0.2400,-9.156891,1,0,370,-9.138285,0.5110
P02,2,24,0.3,0.2400,-8.968294,0,0,383,-8.924297,0.5110
P02,2,25,0.3,0.2400,-9.862473,0,0,333,-9.818477,0.5110
P02,2,26,0.3,0.2400,8.606987,1,1,442,8.650989,0.5110
P02,2,27,0.3,0.2400,-6.379015,0,0,545,-6.423007,0.5110
P02,2,28,0.3,0.2400,-9.780321,0,0,369,-9.736456,0.5110
P02,2,29,0.3,0.2400,-5.458357,0,0,391,-5.414355,0.5110
P02,2,30,0.3,0.2400,-13.491708,0,0,344,-13.448091,0.5110
P02,2,31,0.3,0.2400,-3.795130,0,0,356,-3.751123,0.5110
P02,2,32,0.3,0.2400,10.299103,1,1,421,10.341089,0.5110
P02,2,33,0.3,0.2400,5.951580,1,1,432,5.907576,0.5110
P02,2,34,0.3,0.2400,8.375251,1,1,395,8.331482,0.5110
P02,2,35,0.3,0.2400,-14.873962,0,0,380,-14.917948,0.5110
P02,2,36,0.3,0.2400,-6.525957,0,0,424,-6.481950,0.5110
P02,2,37,0.3,0.2400,-5.328047,0,0,397,-5.284175,0.5110
P02,2,38,0.3,0.2400,-13.992276,0,0,332,-13.948713,0.5110
P02,2,39,0.3,0.2400,-7.423839,0,0,379,-7.379832,0.5110
P02,2,40,0.3,0.2400,-8.668375,0,0,296,-8.624423,0.5110
P02,3,1,0.1,0.2400,-4.509215,0,0,391,-4.509215,0.0010
P02,3,2,0.1,0.2400,-5.009497,0,0,318,-8.820465,0.0010
P02,3,3,0.1,0.2400,-8.777015,0,0,349,-13.262625,0.0010
P02,3,4,0.1,0.2400,-9.552681,0,0,361,-14.051324,0.0010
P02,3,5,0.1,0.2400,-10.632237,0,0,341,-15.130965,0.0010
P02,3,6,0.1,0.2400,-9.712358,0,0,253,-14.211133,0.0010
P02,3,7,0.1,0.2400,-15.625000,0,0,264,-20.123739,0.0010
P02,3,8,0.1,0.2400,-5.430824,0,0,266,-9.929623,0.0010
P02,3,9,0.1,0.2400,-7.120969,0,0,264,-11.615399,0.0010
P02,3,10,0.1,0.2400,-15.625000,0,0,320,-20.122988,0.0010
P02,3,11,0.1,0.2400,-15.625000,0,0,312,-20.123799,0.0010
P02,3,12,0.1,0.2400,-12.716759,0,0,272,-17.215557,0.0010
P02,3,13,0.1,0.2400,-7.518425,0,0,331,-12.017221,0.0010
P02,3,14,0.1,0.2400,-14.890922,0,0,288,-19.389179,0.0010
P02,3,15,0.1,0.2400,-6.789761,0,0,290,-11.288560,0.0010
P02,3,16,0.1,0.2400,-2.977017,0,0,261,-7.474692,0.0010
P02,3,17,0.1,0.2400,-12.055302,0,0,263,-16.504363,0.0010
P02,3,18,0.1,0.2400,-10.263682,0,0,316,-14.762475,0.0010
P02,3,19,0.1,0.2400,9.546930,1,1,417,5.048166,0.0310
P02,3,20,0.1,0.2400,9.933285,1,1,377,13.976432,0.0310
P02,3,21,0.1,0.2400,5.155407,1,1,327,9.654130,0.0310
P02,3,22,0.1,0.2400,7.236577,1,1,315,11.729625,0.0310
P02,3,23,0.1,0.2400,8.165405,1,1,284,12.663480,0.0310
P02,3,24,0.1,0.2400,4.706404,1,1,304,9.204919,0.0310
P02,3,25,0.1,0.2400,15.625000,1,1,301,20.114801,0.0310
P02,3,26,0.1,0.2400,15.625000,1,1,363,20.123799,0.0310
P02,3,27,0.1,0.2400,15.625000,1,1,332,20.123799,0.0310
P02,3,28,0.1,0.2400,-10.091931,1,0,276,-5.593132,0.0010
P02,3,29,0.1,0.2400,-10.733926,0,0,405,-14.944013,0.0010
P02,3,30,0.1,0.2400,2.713739,1,1,362,-1.785031,0.0010
P02,3,31,0.1,0.2400,15.625000,1,1,401,13.902286,0.0010
P02,3,32,0.1,0.2400,6.873240,1,1,310,11.371957,0.0010
P02,3,33,0.1,0.2400,7.623061,1,1,645,12.120826,0.0010
P02,3,34,0.1,0.2400,3.157105,1,1,393,7.655415,0.0010
P02,3,35,0.1,0.2400,10.942047,1,1,362,15.399163,0.0010
P02,3,36,0.1,0.2400,-5.815297,0,0,411,-1.316517,0.0110
P02,3,37,0.1,0.2400,-11.358951,0,0,383,-12.637792,0.0110
P02,3,38,0.1,0.2400,-4.156943,0,0,326,-8.655450,0.0110
P02,3,39,0.1,0.2400,-6.800345,0,0,293,-11.283607,0.0110
P02,3,40,0.1,0.2400,-8.674533,0,0,318,-13.172202,0.0110
P02,4,1,0.5,0.2400,-0.917696,0,0,607,-0.917696,0.0010
P02,4,2,0.5,0.2400,-5.373610,0,0,359,-6.146303,0.0010
P02,4,3,0.5,0.2400,-1.983925,0,0,331,-4.527884,0.0010
P02,4,4,0.5,0.2400,-9.905521,0,0,367,-12.345556,0.0010
P02,4,5,0.5,0.2400,-5.009326,0,0,326,-7.580698,0.0010
P02,4,6,0.5,0.2400,-8.753677,0,0,324,-11.318491,0.0010
P02,4,7,0.5,0.2400,-8.384756,0,0,302,-10.956027,0.0010
P02,4,8,0.5,0.2400,-4.692403,0,0,302,-7.263605,0.0010
P02,4,9,0.5,0.2400,13.881381,1,1,515,11.319024,0.0010
P02,4,10,0.5,0.2400,7.324147,1,1,395,9.895418,0.0010
P02,4,11,0.5,0.2400,-15.625000,0,0,558,-13.054227,0.0010
P02,4,12,0.5,0.2400,9.543696,1,1,405,6.972295,0.0210
P02,4,13,0.5,0.2400,-11.095432,0,0,337,-8.536124,0.0210
P02,4,14,0.5,0.2400,12.253693,1,1,324,9.684813,0.0210
P02,4,15,0.5,0.2400,15.625000,1,1,357,18.195620,0.0210
P02,4,16,0.5,0.2400,-9.408956,0,0,449,-6.837527,0.0310
P02,4,17,0.5,0.2400,12.436934,1,1,368,9.879362,0.0310
P02,4,18,0.5,0.2400,-14.441693,0,0,345,-11.870930,0.0310
P02,4,19,0.5,0.2400,-13.516283,0,0,378,-16.087621,0.0310
P02,4,20,0.5,0.2400,9.821796,1,1,817,7.250368,0.0410
P02,4,21,0.5,0.2400,11.354059,1,1,367,13.916296,0.0410
P02,4,22,0.5,0.2400,2.897451,1,1,386,5.468868,0.0310
P02,4,23,0.5,0.2400,4.467455,1,1,410,6.985509,0.0310
P02,4,24,0.5,0.2400,10.819562,1,1,327,13.379028,0.0310
P02,4,25,0.5,0.2400,13.378774,1,1,396,15.950182,0.0310
P02,4,26,0.5,0.2400,-9.399662,0,0,367,-6.828235,0.0410
P02,4,27,0.5,0.2400,14.824871,1,1,376,12.267428,0.0410
P02,4,28,0.5,0.2400,1.577378,1,1,563,4.148746,0.0310
P02,4,29,0.5,0.2400,7.851968,1,1,414,10.236855,0.0310
P02,4,30,0.5,0.2400,-6.730367,0,0,464,-4.159404,0.0510
P02,4,31,0.5,0.2400,9.568418,1,1,361,7.181727,0.0610
P02,4,32,0.5,0.2400,13.363978,1,1,380,15.925566,0.0610
P02,4,33,0.5,0.2400,4.382512,1,1,428,6.953939,0.0510
P02,4,34,0.5,0.2400,12.244304,1,1,397,14.803390,0.0510
P02,4,35,0.5,0.2400,9.996452,1,1,319,12.567876,0.0510
P02,4,36,0.5,0.2400,-11.226847,0,0,358,-8.655464,0.0510
P02,4,37,0.5,0.2400,15.625000,1,1,348,13.055834,0.0510
P02,4,38,0.5,0.2400,-7.479292,0,0,368,-4.907890,0.0610
P02,4,39,0.5,0.2400,7.144472,1,1,315,4.664756,0.0710
P02,4,40,0.5,0.2400,6.239756,1,1,441,8.695655,0.0710
P03,1,1,0.05,0.4100,3.226995,1,1,3178,3.226995,0.0010
P03,1,2,0.05,0.4100,-2.953524,0,1,9783,-2.307557,0.9910
P03,1,3,0.05,0.4100,1.917467,1,1,1569,1.348992,0.9910
P03,1,4,0.05,0.4100,1.525006,1,1,967,1.927806,0.5310
P03,1,5,0.05,0.4100,1.917923,1,1,774,2.433343,0.4510
P03,1,6,0.05,0.4100,5.353956,1,1,1029,5.936859,0.4410
P03,1,7,0.05,0.4100,5.353956,1,1,985,6.053605,0.4410
P03,1,8,0.05,0.4100,0.594862,1,1,706,1.294952,0.0810
P03,1,9,0.05,0.4100,3.232391,1,1,123460,3.622565,0.0810
P03,1,10,0.05,0.4100,3.439559,1,1,5754,4.103770,0.0710
P03,1,11,0.05,0.4100,0.734078,1,1,1974,1.413055,0.0610
P03,1,12,0.05,0.4100,2.836541,1,1,1481,3.253835,0.0510
P03,1,13,0.05,0.4100,5.294251,1,1,4914,5.941676,0.0510
P03,1,14,0.05,0.4100,2.354599,1,1,5408,3.054267,0.0510
P03,1,15,0.05,0.4100,3.753973,1,1,580,4.389664,0.0510
P03,1,16,0.05,0.4100,2.345472,1,1,355,3.030494,0.0510
P03,1,17,0.05,0.4100,2.265176,1,1,849,2.899324,0.0510
P03,1,18,0.05,0.4100,-0.442225,0,1,1419,0.182801,0.3310
P03,1,19,0.05,0.4100,4.813038,1,1,3549,4.874673,0.3310
P03,1,20,0.05,0.4100,5.038291,1,1,6910,5.730409,0.3310
P03,1,21,0.05,0.4100,1.054018,1,1,1418,1.752750,0.3010
P03,1,22,0.05,0.4100,3.388123,1,1,1088,3.873756,0.2910
P03,1,23,0.05,0.4100,5.353956,1,1,21565,6.026709,0.2910
P03,1,24,0.05,0.4100,0.717787,1,1,850,1.417780,0.2610
P03,1,25,0.05,0.4100,5.022416,1,1,699,5.440759,0.2610
P03,1,26,0.05,0.4100,5.353956,1,1,670,6.051039,0.2610
P03,1,27,0.05,0.4100,-5.147871,0,0,910,-4.447790,0.2610
P03,1,28,0.05,0.4100,-0.368008,0,0,1104,-1.054067,0.2310
P03,1,29,0.05,0.4100,-1.169700,0,0,911,-1.499233,0.2110
P03,1,30,0.05,0.4100,2.804743,1,0,6444,2.368760,0.2310
P03,1,31,0.05,0.4100,-5.353956,0,0,909,-4.778280,0.2310
P03,1,32,0.05,0.4100,-0.619063,0,0,1012,-1.310026,0.2110
P03,1,33,0.05,0.4100,-3.334295,0,0,12610,-3.728027,0.2110
P03,1,34,0.05,0.4100,-2.588615,0,0,1629,-3.256659,0.2010
P03,1,35,0.05,0.4100,0.781390,1,0,730,0.133814,0.2810
P03,1,36,0.05,0.4100,-5.353956,0,0,713,-5.308787,0.2710
P03,1,37,0.05,0.4100,-3.285926,0,0,642,-3.982086,0.2710
P03,1,38,0.05,0.4100,0.778371,1,0,682,0.102516,0.3310
P03,1,39,0.05,0.4100,-5.353956,0,0,822,-5.319332,0.3310
P03,1,40,0.05,0.4100,-4.549726,0,0,609,-5.245965,0.3310
P03,2,1,0.1,0.4100,-1.409163,0,0,736,-1.409163,0.0010
P03,2,2,0.1,0.4100,-5.353956,0,0,881,-6.647868,0.0010
P03,2,3,0.1,0.4100,-0.524360,0,1,805,-3.926944,0.0010
P03,2,4,0.1,0.4100,4.236247,1,1,848,1.273233,0.1110
P03,2,5,0.1,0.4100,1.223392,1,1,562,2.397326,0.1010
P03,2,6,0.1,0.4100,5.353956,1,1,693,7.452818,0.1010
P03,2,7,0.1,0.4100,3.533470,1,1,534,6.957805,0.1010
P03,2,8,0.1,0.4100,0.906646,1,0,625,4.319655,0.0810
P03,2,9,0.1,0.4100,-0.740993,1,0,1225,2.353964,0.0510
P03,2,10,0.1,0.4100,-1.841031,0,0,774,0.225700,0.0910
P03,2,11,0.1,0.4100,2.097033,1,1,925,2.308632,0.0810
P03,2,12,0.1,0.4100,3.243506,1,1,656,5.276275,0.0810
P03,2,13,0.1,0.4100,0.756703,1,1,508,4.050919,0.0710
P03,2,14,0.1,0.4100,5.353956,1,1,489,8.362356,0.0710
P03,2,15,0.1,0.4100,-0.227382,1,1,1599,3.207631,0.0610
P03,2,16,0.1,0.4100,2.004847,1,1,520,4.631081,0.0610
P03,2,17,0.1,0.4100,4.411135,1,1,564,7.587839,0.0610
P03,2,18,0.1,0.4100,5.353956,1,1,640,8.780539,0.0610
P03,2,19,0.1,0.4100,0.639757,1,1,709,4.077246,0.0610
P03,2,20,0.1,0.4100,2.879757,1,1,535,5.897340,0.0610
P03,2,21,0.1,0.4100,0.649122,1,1,474,4.009117,0.0610
P03,2,22,0.1,0.4100,-4.729901,1,0,489,-1.736407,0.0210
P03,2,23,0.1,0.4100,-3.655983,0,0,1160,-5.231129,0.0210
P03,2,24,0.1,0.4100,-5.353956,0,0,732,-8.641838,0.0210
P03,2,25,0.1,0.4100,-3.556863,0,0,653,-6.993642,0.0210
P03,2,26,0.1,0.4100,-5.353956,0,0,630,-8.767981,0.0210
P03,2,27,0.1,0.4100,-2.434899,0,0,608,-5.872328,0.0210
P03,2,28,0.1,0.4100,-1.645168,0,0,520,-5.003164,0.0210
P03,2,29,0.1,0.4100,5.353956,1,1,1284,2.102043,0.0210
P03,2,30,0.1,0.4100,4.903863,1,1,597,6.777281,0.0210
P03,2,31,0.1,0.4100,3.649547,1,1,625,7.056866,0.0210
P03,2,32,0.1,0.4100,1.940681,1,1,1314,5.356414,0.0210
P03,2,33,0.1,0.4100,5.224597,1,1,744,8.529467,0.0210
P03,2,34,0.1,0.4100,0.308859,1,1,1733,3.744987,0.0210
P03,2,35,0.1,0.4100,4.507985,1,1,685,7.397815,0.0210
P03,2,36,0.1,0.4100,4.861194,1,1,593,8.284523,0.0210
P03,2,37,0.1,0.4100,-3.227058,0,1,45520,0.207369,0.0410
P03,2,38,0.1,0.4100,-1.137463,0,1,713,-0.943035,0.0410
P03,2,39,0.1,0.4100,0.477975,1,1,747,-0.398495,0.0310
P03,2,40,0.1,0.4100,3.099226,1,1,519,2.726036,0.0310
P03,3,1,0.3,0.4100,1.187286,1,0,698,1.187286,0.0010
P03,3,2,0.3,0.4100,-5.353956,0,0,998,-4.472390,0.9910
P03,3,3,0.3,0.4100,-5.353956,0,0,805,-7.348429,0.3910
P03,3,4,0.3,0.4100,-5.353956,0,0,700,-7.429462,0.2710
P03,3,5,0.3,0.4100,2.225703,1,1,865,0.149804,0.7810
P03,3,6,0.3,0.4100,1.415193,1,1,747,1.531655,0.4410
P03,3,7,0.3,0.4100,-0.287975,0,1,622,0.814423,0.5810
P03,3,8,0.3,0.4100,1.409041,1,1,610,2.028932,0.6010
P03,3,9,0.3,0.4100,1.962525,1,1,610,3.340077,0.5610
P03,3,10,0.3,0.4100,1.723602,1,1,549,3.558764,0.5110
P03,3,11,0.3,0.4100,5.046169,1,1,558,6.924859,0.5110
P03,3,12,0.3,0.4100,1.275118,1,1,431,3.347965,0.4310
P03,3,13,0.3,0.4100,4.639804,1,1,519,6.476670,0.4210
P03,3,14,0.3,0.4100,-2.350907,1,0,491,-0.282398,0.0710
P03,3,15,0.3,0.4100,-2.326622,0,0,877,-2.545752,0.0910
P03,3,16,0.3,0.4100,-1.265680,0,0,414,-2.868626,0.0810
P03,3,17,0.3,0.4100,5.353956,0,1,462,3.641143,0.0510
P03,3,18,0.3,0.4100,4.451861,1,1,113,6.345064,0.0510
P03,3,19,0.3,0.4100,-3.170420,0,0,850,-1.103595,0.0710
P03,3,20,0.3,0.4100,4.916102,1,1,954,4.091436,0.0710
P03,3,21,0.3,0.4100,0.581431,1,1,1345,2.538444,0.0710
P03,3,22,0.3,0.4100,5.211775,1,1,714,6.811967,0.0710
P03,3,23,0.3,0.4100,3.049696,1,1,611,5.121625,0.0710
P03,3,24,0.3,0.4100,-4.341324,0,0,1012,-2.306690,0.0710
P03,3,25,0.3,0.4100,-0.288776,0,0,685,-1.795237,0.0710
P03,3,26,0.3,0.4100,-5.353956,0,0,653,-6.609094,0.0710
P03,3,27,0.3,0.4100,-1.965447,0,0,610,-4.035444,0.0710
P03,3,28,0.3,0.4100,2.394558,1,1,894,0.444201,0.0910
P03,3,29,0.3,0.4100,5.353956,1,1,13570,5.697305,0.0910
P03,3,30,0.3,0.4100,3.464969,1,1,656,5.519439,0.0910
P03,3,31,0.3,0.4100,1.054911,1,1,1165,3.104382,0.0910
P03,3,32,0.3,0.4100,-1.724342,0,0,1824,0.054897,0.1210
P03,3,33,0.3,0.4100,-5.353956,0,0,790,-5.311250,0.1210
P03,3,34,0.3,0.4100,-2.071553,0,0,837,-4.113967,0.1210
P03,3,35,0.3,0.4100,-0.290645,0,1,787,-2.250246,0.1210
P03,3,36,0.3,0.4100,-5.353956,0,0,732,-6.835692,0.1210
P03,3,37,0.3,0.4100,-0.254512,0,1,684,-2.326643,0.1110
P03,3,38,0.3,0.4100,-2.897962,0,0,700,-4.412986,0.1110
P03,3,39,0.3,0.4100,-5.353956,0,0,701,-7.343401,0.1110
P03,3,40,0.3,0.4100,-5.353956,0,0,587,-7.429437,0.1110
P03,4,1,0.5,0.4100,4.135960,1,1,783,4.135960,0.0010
P03,4,2,0.5,0.4100,1.318223,1,1,700,1.912347,0.0010
P03,4,3,0.5,0.4100,4.283771,1,1,775,4.733783,0.0010
P03,4,4,0.5,0.4100,0.392906,1,1,790,0.996169,0.0010
P03,4,5,0.5,0.4100,0.915730,1,1,685,1.191997,0.0010
P03,4,6,0.5,0.4100,1.406115,1,0,520,1.727227,0.0010
P03,4,7,0.5,0.4100,0.803872,0,1,1854,1.226112,0.3310
P03,4,8,0.5,0.4100,-4.657644,0,0,835,-4.329141,0.3310
P03,4,9,0.5,0.4100,-4.808690,0,0,581,-5.406363,0.3310
P03,4,10,0.5,0.4100,-3.867973,0,0,848,-4.476780,0.3310
P03,4,11,0.5,0.4100,3.054955,1,1,895,2.454983,0.3610
P03,4,12,0.5,0.4100,1.744219,1,1,595,2.256904,0.3310
P03,4,13,0.5,0.4100,3.172887,1,0,654,3.665675,0.3310
P03,4,14,0.5,0.4100,1.543522,1,1,655,2.125686,0.3010
P03,4,15,0.5,0.4100,0.774145,1,1,656,1.251935,0.2710
P03,4,16,0.5,0.4100,5.353956,1,1,529,5.687967,0.2710
P03,4,17,0.5,0.4100,-3.013439,0,0,939,-2.403205,0.2910
P03,4,18,0.5,0.4100,2.564866,1,1,803,2.057080,0.3010
P03,4,19,0.5,0.4100,1.295361,1,1,722,1.764690,0.2910
P03,4,20,0.5,0.4100,4.879399,1,1,624,5.307547,0.2910
P03,4,21,0.5,0.4100,5.353956,1,1,566,5.962160,0.2910
P03,4,22,0.5,0.4100,0.690933,1,0,1239,1.302222,0.2610
P03,4,23,0.5,0.4100,-1.240070,0,0,1135,-0.895541,0.3010
P03,4,24,0.5,0.4100,-2.953982,0,0,668,-3.205660,0.3010
P03,4,25,0.5,0.4100,3.749239,1,1,895,3.185177,0.3110
P03,4,26,0.5,0.4100,4.078283,1,1,580,4.641347,0.3110
P03,4,27,0.5,0.4100,-4.902201,0,0,865,-4.300028,0.3110
P03,4,28,0.5,0.4100,0.596803,0,1,1869,-0.000377,0.2610
P03,4,29,0.5,0.4100,5.353956,1,1,893,5.353844,0.2610
P03,4,30,0.5,0.4100,-2.964141,0,0,821,-2.355648,0.2810
P03,4,31,0.5,0.4100,0.732603,1,1,1271,0.229502,0.3110
P03,4,32,0.5,0.4100,-2.374860,0,0,954,-2.306741,0.3010
P03,4,33,0.5,0.4100,1.539819,1,1,999,1.041725,0.3310
P03,4,34,0.5,0.4100,5.197843,1,1,714,5.484904,0.3310
P03,4,35,0.5,0.4100,3.732736,1,1,578,4.341982,0.3310
P03,4,36,0.5,0.4100,-0.994625,0,1,1046,-0.396738,0.3710
P03,4,37,0.5,0.4100,-3.215200,0,0,954,-3.332034,0.3710
P03,4,38,0.5,0.4100,-4.229171,0,0,685,-4.798994,0.3710
P03,4,39,0.5,0.4100,-0.850482,0,0,595,-1.454456,0.3510
P03,4,40,0.5,0.4100,-5.353956,0,0,638,-5.728612,0.3510
